温度/℃ 降温电阻/ohm 升温电阻/ohm
100.2 939.50 900.02
95.0 923.16 874.23
90.0 883.67 813.24
85.0 838.93 772.89
80.0 793.27 725.03
75.0 746.62 676.88
70.0 698.24 628.31
65.0 648.51 579.25
60.0 598.25 531.48
55.0 546.89 483.57
50.0 488.38 436.20
45.0 442.63 389.12
40.0 391.95 349.20
35.0 338.66 337.54
30.0 NaN NaN
25.0 263.50 243.45
20.0 236.80 193.57
15.0 189.31 143.88
10.0 138.31 97.22
5.0 86.59 70.32
1.8 46.37 46.37
